File: Raport dot. elektrod grafenowych/data.csv
Ref.,Limits of Potential Window (V),Lower Limit of Potential Window (V),Upper Limit of Potential Window (V),Potential Window (V),Current Density (A/g),Capacitance (F/g),Specific Surface Area (m^2/g),Charge Transfer Resistance (Rct) (ohm),Equivalent Series Resistance (Rs) (ohm),Electrode Configuration,Pore Size (nm),Pore Volume (cm^3/g),Ratio of ID/IG,N at%,C at%,O at%,Electrolyte Chemical Formula,Electrolyte Ionic Conductivity,Electrolyte Concentration (M),Cell Configuration (three/two electrode system)
DOI: 10.1039/c7ta03093b,0 to 0.8,0,0.8,0.8,1,680,186.3,,7.70,CNF/RGO/moOxNy,,,1.45,2.1,,, H2SO4,7,1,three-electrode system
DOI: 10.1039/c6ta10933k,0 to 1,0,1,1,1,367,537,6.10,1.95,sulfur-doped graphene foam (SGF),,,1.28,0,85.6,9.1,KOH,6,6,two-electrode system
DOI: 10.1039/c6ta10933k,0 to 1,0,1,1,2,338,537,6.10,1.95,sulfur-doped graphene foam (SGF),,,1.28,0,85.6,9.1,KOH,6,6,two-electrode system
DOI: 10.1039/c6ta10933k,0 to 1,0,1,1,5,283,537,6.10,1.95,sulfur-doped graphene foam (SGF),,,1.28,0,85.6,9.1,KOH,6,6,two-electrode system
DOI: 10.1039/c6ta10933k,0 to 1,0,1,1,10,246,537,6.10,1.95,sulfur-doped graphene foam (SGF),,,1.28,0,85.6,9.1,KOH,6,6,two-electrode system
DOI: 10.1039/d1se01134k,0 to 0.5,0,0.5,0.5,1,872,168.2,,0.80,moS2-moO2/G,,,1.22,,,,KOH,6,2,three-electrode system
DOI: 10.1039/c8ra08762h,-0.4 to 0.2,-0.4,0.2,0.6,1,143,,,,copper anchored boron doped graphene nanosheet (CuBG) 1,,,1,,,,H2SO4/PVA,,,two-electrode system
DOI: 10.1039/c8ra08762h,-0.4 to 0.2,-0.4,0.2,0.6,1,306,,,,copper anchored boron doped graphene nanosheet (CuBG) 2,,,1.01,,,,H2SO4/PVA,,,two-electrode system
DOI: 10.1039/c8ra08762h,-0.4 to 0.2,-0.4,0.2,0.6,1,360,,,,copper anchored boron doped graphene nanosheet (CuBG) 3,,,1.033,,,,H2SO4/PVA,,,two-electrode system
DOI: 10.1039/c8ra08762h,-0.4 to 0.2,-0.4,0.2,0.6,1,483,,,,copper anchored boron doped graphene nanosheet (CuBG) 4,,,1.21,,,,H2SO4/PVA,,,two-electrode system
DOI: 10.1039/c8ra08762h,-0.4 to 0.2,-0.4,0.2,0.6,1,420,,,,copper anchored boron doped graphene nanosheet (CuBG) 5,,,1.6,,,,H2SO4/PVA,,,two-electrode system
DOI: 10.1039/c6ra21281f,0 to 0.45,0,0.45,0.45,30,617,,,,(mn0.5Co2.5O4@G),,,,,,,KOH,6,6,three-electrode system
DOI: 10.1039/c6ra21281f,0 to 0.45,0,0.45,0.45,40,434,,,,(mn0.5Co2.5O4@G),,,,,,,KOH,6,6,three-electrode system
DOI: 10.1039/c6ra21281f,0 to 0.45,0,0.45,0.45,5,1213,,,,(mn0.5Co2.5O4@G),,,,,,,KOH,6,6,three-electrode system
DOI: 10.1039/c6ra21281f,0 to 0.45,0,0.45,0.45,10,897,,,,(mn0.5Co2.5O4@G),,,,,,,KOH,6,6,three-electrode system
DOI: 10.1039/c6ra21281f,0 to 0.45,0,0.45,0.45,15,829,,,,(mn0.5Co2.5O4@G),,,,,,,KOH,6,6,three-electrode system
DOI: 10.1039/c6ra21281f,0 to 0.45,0,0.45,0.45,20,755,,,,(mn0.5Co2.5O4@G),,,,,,,KOH,6,6,three-electrode system
DOI: 10.1039/c6ta02989b,-0.2 to 0.8,-0.2,0.8,1,1,245,,,,d-mnO2(4.0)/(HRGO) fiber,,,,,,,Na2SO4,3,1,three-electrode system
DOI: 10.1039/c5ta10515c,-0.4 to 0.5,-0.4,0.5,0.9,2.5,388,,,,Au-mnO2-graphene/SS in 0.5 m NaOH [1 : 0.01 (mnO2 : Au)],,,,,,,NaOH,,0.1,three-electrode system
DOI: 10.1039/c5ta10515c,-0.4 to 0.5,-0.4,0.5,0.9,2.5,575,,,,Au-mnO2-graphene/SS in 0.5 m NaOH [1 : 0.01 (mnO2 : Au)],,,,,,,NaOH,,0.5,three-electrode system
DOI: 10.1039/c5ta10515c,-0.4 to 0.5,-0.4,0.5,0.9,2.5,350,,,,Au-mnO2-graphene/SS in 0.5 m NaOH [1 : 0.01 (mnO2 : Au)],,,,,,,NaOH,,1,three-electrode system
DOI: 10.1039/c4nr00655k,0 to 0.4,0,0.4,0.4,1.5,1536,,,,Ni(OH)2/N-graphene,,,,,,,KOH,6,,
DOI: 10.1039/c4nr00655k,0 to 0.4,0,0.4,0.4,3,1424,,,,Ni(OH)2/N-graphene,,,,,,,KOH,6,,
DOI: 10.1039/c4nr00655k,0 to 0.4,0,0.4,0.4,12,1125,,,,Ni(OH)2/N-graphene,,,,,,,KOH,6,,
DOI: 10.1039/c4nr00655k,0 to 0.4,0,0.4,0.4,30,922,,,,Ni(OH)2/N-graphene,,,,,,,KOH,6,,
DOI: 10.1039/c3ta14387b,0 to 1.0,0,1,1,1,242,1675,,,mnO2/rGO,,,,,,,Na2SO4,3,1,three-electrode system
DOI: 10.1039/c3ta14387b,0 to 1.0,0,1,1,2,214,1675,,,mnO2/rGO,,,,,,,Na2SO4,3,1,three-electrode system
DOI: 10.1039/c3ta14387b,0 to 1.0,0,1,1,4,164,1675,,,mnO2/rGO,,,,,,,Na2SO4,3,1,three-electrode system
DOI: 10.1039/c3ta14387b,0 to 1.0,0,1,1,6,122,1675,,,mnO2/rGO,,,,,,,Na2SO4,3,1,three-electrode system
DOI: 10.1039/c3ta14387b,0 to 1.0,0,1,1,8,92,1675,,,mnO2/rGO,,,,,,,Na2SO4,3,1,three-electrode system
DOI: 10.1039/c3ta14387b,-0.6 to 0,-0.6,0,0.6,1,137,1217,,,rGO,,,,,,,Na2SO4,3,1,three-electrode system
DOI: 10.1039/c3ta14387b,-0.6 to 0,-0.6,0,0.6,2,129,1217,,,rGO,,,,,,,Na2SO4,3,1,three-electrode system
DOI: 10.1039/c3ta14387b,-0.6 to 0,-0.6,0,0.6,4,112,1217,,,rGO,,,,,,,Na2SO4,3,1,three-electrode system
DOI: 10.1039/c3ta14387b,-0.6 to 0,-0.6,0,0.6,6,98,1217,,,rGO,,,,,,,Na2SO4,3,1,three-electrode system
DOI: 10.1039/c3ta14387b,-0.6 to 0,-0.6,0,0.6,8,87,1217,,,rGO,,,,,,,Na2SO4,3,1,three-electrode system
DOI: 10.1039/c1gc16134b,0 to 1,0,1,1,,239.6,,,,"graphene/mn3O4
composite",,,,,,,NaCl,1,0.5,three-electrode system
DOI: 10.1016/j.electacta.2015.01.082,0 to 1,0,1,1,1,385,1241,,,10 wt.% rGO/HKUST-1 coated on flexible carbon fiber paper (CFP),8.2,0.78,,,,,NaNO3,,1,three-electrode system
DOI: 10.1016/j.electacta.2018.04.089,0 to 0.75,0,0.75,0.75,0.5,569.4,,3.52,,CuOx@mC700@PANI@rGO,,,,7.41,72.36,19.71,H2SO4 ,7,1,three-electrode system
DOI: 10.1016/j.electacta.2018.04.089,0 to 0.75,0,0.75,0.75,1,534.5,,3.52,,CuOx@mC700@PANI@rGO,,,,7.41,72.36,19.71,H2SO4 ,7,1,three-electrode system
DOI: 10.1016/j.electacta.2018.04.089,0 to 0.75,0,0.75,0.75,2,493.6,,3.52,,CuOx@mC700@PANI@rGO,,,,7.41,72.36,19.71,H2SO4 ,7,1,three-electrode system
DOI: 10.1016/j.electacta.2018.04.089,0 to 0.75,0,0.75,0.75,2,457,,3.52,,CuOx@mC700@PANI@rGO,,,,7.41,72.36,19.71,H2SO4 ,7,1,three-electrode system
DOI: 10.1016/j.electacta.2018.04.089,0 to 0.75,0,0.75,0.75,5,408.2,,3.52,,CuOx@mC700@PANI@rGO,,,,7.41,72.36,19.71,H2SO4 ,7,1,three-electrode system
DOI: 10.1016/j.jcis.2019.10.023,0 to 0.5,0,0.5,0.5,1,529,,,,Ni-mOF/rGO,,,,,,,PVA/KOH gel,,,three-electrode system
DOI: 10.1016/j.jcis.2019.10.023,0 to 0.5,0,0.5,0.5,1,954,,,,Ni-mOF/rGO-300,,,,23.82,36.6,30.94,PVA/KOH gel,,,three-electrode system
DOI: 10.1016/j.jcis.2019.10.023,0 to 0.5,0,0.5,0.5,2,800,,,,Ni-mOF/rGO-300,,,,23.82,36.6,30.94,PVA/KOH gel,,,three-electrode system
DOI: 10.1016/j.jcis.2019.10.023,0 to 0.5,0,0.5,0.5,3,750,,,,Ni-mOF/rGO-300,,,,23.82,36.6,30.94,PVA/KOH gel,,,three-electrode system
DOI: 10.1016/j.jcis.2019.10.023,0 to 0.5,0,0.5,0.5,4,745,,,,Ni-mOF/rGO-300,,,,23.82,36.6,30.94,PVA/KOH gel,,,three-electrode system
DOI: 10.1016/j.jcis.2019.10.023,0 to 0.5,0,0.5,0.5,5,740,,,,Ni-mOF/rGO-300,,,,23.82,36.6,30.94,PVA/KOH gel,,,three-electrode system
DOI: 10.1016/j.jpcs.2021.110284,0 to 0.6,0,0.6,0.6,0.5,301,,,,CeO2/rGO,,,,,,,KOH,6,2,three-electrode system
DOI: 10.1016/j.jpcs.2021.110284,0 to 0.6,0,0.6,0.6,1,272,,,,CeO2/rGO,,,,,,,KOH,6,2,three-electrode system
DOI: 10.1016/j.jpcs.2021.110284,0 to 0.6,0,0.6,0.6,2,243,,,,CeO2/rGO,,,,,,,KOH,6,2,three-electrode system
DOI: 10.1016/j.jpcs.2021.110284,0 to 0.6,0,0.6,0.6,4,241,,,,CeO2/rGO,,,,,,,KOH,6,2,three-electrode system
DOI: 10.1016/j.jallcom.2020.155838,-1.1 to -0.2,-1.1,-0.2,0.9,1,258,,,,"G/CNTs/Fe2O3-
150",,,,,,, Li2SO4,,1,three-electrode system
DOI: 10.1016/j.jallcom.2020.156346,,,,,0.5,980,85,,,moSmn-1,13.5,0.05061,,,,,H2SO4,7,1,three-electrode system
DOI: 10.1016/j.jallcom.2020.156346,,,,,,,,,,moSmn-2,,,,,,,H2SO4,7,1,three-electrode system
DOI: 10.1016/j.jallcom.2020.156346,,,,,,,,,,moSmn-3,,,,,,,H2SO4,7,1,three-electrode system
DOI: 10.1016/j.jallcom.2020.156346,,,,,,,,,,moSmn-4,,,,,,,H2SO4,7,1,three-electrode system
DOI: 10.1016/j.jallcom.2021.159702,0 to 0.4,0,0.4,0.4,1,460,,,,rGO/CoSx-rGO/rGO,,,1.09,,,,KOH,6,1,three-electrode system
DOI: 10.1016/j.jallcom.2021.159702,0 to 0.4,0,0.4,0.4,2,265,,,,rGO/CoSx-rGO/rGO,,,1.09,,,,KOH,6,1,three-electrode system
DOI: 10.1016/j.jallcom.2021.159702,0 to 0.4,0,0.4,0.4,4,236,,,,rGO/CoSx-rGO/rGO,,,1.09,,,,KOH,6,1,three-electrode system
DOI: 10.1016/j.jallcom.2021.159702,0 to 0.4,0,0.4,0.4,8,170,,,,rGO/CoSx-rGO/rGO,,,1.09,,,,KOH,6,1,three-electrode system
DOI: 10.1016/j.jallcom.2021.159702,0 to 0.4,0,0.4,0.4,16,136,,,,rGO/CoSx-rGO/rGO,,,1.09,,,,KOH,6,1,three-electrode system
DOI: 10.1016/j.jallcom.2021.163067,-0.05 to 0.8,-0.05,0.8,0.85,1,357,,,,rGO/mWCNT/ZrO2 (GmZ),,,1.16,,,,H2SO4,7,1,three-electrode system
DOI: 10.1016/j.jallcom.2021.163067,-0.05 to 0.8,-0.05,0.8,0.85,1.5,212,,,,rGO/mWCNT/ZrO2 (GmZ),,,1.16,,,,H2SO4,7,1,three-electrode system
DOI: 10.1016/j.jallcom.2021.163067,-0.05 to 0.8,-0.05,0.8,0.85,2,192,,,,rGO/mWCNT/ZrO2 (GmZ),,,1.16,,,,H2SO4,7,1,three-electrode system
DOI: 10.1016/j.jallcom.2021.163067,-0.05 to 0.8,-0.05,0.8,0.85,2.5,179,,,,rGO/mWCNT/ZrO2 (GmZ),,,1.16,,,,H2SO4,7,1,three-electrode system
DOI: 10.1016/j.jallcom.2021.163067,-0.05 to 0.8,-0.05,0.8,0.85,3,176,,,,rGO/mWCNT/ZrO2 (GmZ),,,1.16,,,,H2SO4,7,1,three-electrode system
DOI: 10.1016/j.diamond.2021.108696,0 to 0.8,0,0.8,0.8,0.1,98.2,,,,S-rGO-0.15,,,0.12,,,,H2SO4,7,1,three-electrode system
DOI: 10.1016/j.diamond.2021.108696,0 to 0.8,0,0.8,0.8,0.1,237.6,,4.11,,S-rGO-0.25,,,0.17,0,84.35,14.56,H2SO4,7,1,three-electrode system
DOI: 10.1016/j.diamond.2021.108696,0 to 0.8,0,0.8,0.8,0.1,61.7,,,,S-rGO-0.50,,,1.25,,,,H2SO4,7,1,three-electrode system
DOI: 10.1016/j.compositesb.2017.11.024,-1.0 to 0,-1,0,1,0.2,215,,,,cellulose/mWCNT/rGO/Co3O4/SnO2,,,1.05,,,,,,,three-electrode system
DOI: 10.1016/j.compositesb.2017.11.024,-1.0 to 0,-1,0,1,0.4,181,,,,cellulose/mWCNT/rGO/Co3O4/SnO2,,,1.05,,,,,,,three-electrode system
DOI: 10.1016/j.compositesb.2017.11.024,-1.0 to 0,-1,0,1,0.6,179,,,,cellulose/mWCNT/rGO/Co3O4/SnO2,,,1.05,,,,,,,three-electrode system
DOI: 10.1016/j.compositesb.2017.11.024,-1.0 to 0,-1,0,1,0.8,172,,,,cellulose/mWCNT/rGO/Co3O4/SnO2,,,1.05,,,,,,,three-electrode system
DOI: 10.1016/j.mssp.2021.106078,0 to 0.45,0,0.45,0.45,3,680,39.142,1.47,,10-rGO/NimoO4,3.492,0.071,1.054,,,,KOH,6,3,three-electrode system
DOI: 10.1016/j.mssp.2021.106078,0 to 0.45,0,0.45,0.45,4,616,39.142,1.47,,10-rGO/NimoO4,3.492,0.071,1.054,,,,KOH,6,3,three-electrode system
DOI: 10.1016/j.mssp.2021.106078,0 to 0.45,0,0.45,0.45,5,605,39.142,1.47,,10-rGO/NimoO4,3.492,0.071,1.054,,,,KOH,6,3,three-electrode system
DOI: 10.1016/j.mssp.2021.106078,0 to 0.45,0,0.45,0.45,6,593,39.142,1.47,,10-rGO/NimoO4,3.492,0.071,1.054,,,,KOH,6,3,three-electrode system
DOI: 10.1016/j.mssp.2021.106078,0 to 0.45,0,0.45,0.45,7,575,39.142,1.47,,10-rGO/NimoO4,3.492,0.071,1.054,,,,KOH,6,3,three-electrode system
DOI: 10.1016/j.mssp.2021.106078,0 to 0.45,0,0.45,0.45,2,380,34.903,3.47,,5-rGO/NimoO4,3.42,0.066,1.058,,,,KOH,6,3,three-electrode system
DOI: 10.1016/j.mssp.2021.106078,0 to 0.45,0,0.45,0.45,3,350,34.903,3.47,,5-rGO/NimoO4,3.42,0.066,1.058,,,,KOH,6,3,three-electrode system
DOI: 10.1016/j.mssp.2021.106078,0 to 0.45,0,0.45,0.45,4,331,34.903,3.47,,5-rGO/NimoO4,3.42,0.066,1.058,,,,KOH,6,3,three-electrode system
DOI: 10.1016/j.mssp.2021.106078,0 to 0.45,0,0.45,0.45,5,311,34.903,3.47,,5-rGO/NimoO4,3.42,0.066,1.058,,,,KOH,6,3,three-electrode system
DOI: 10.1016/j.mssp.2021.106078,0 to 0.45,0,0.45,0.45,6,296,34.903,3.47,,5-rGO/NimoO4,3.42,0.066,1.058,,,,KOH,6,3,three-electrode system
DOI: 10.1016/j.mssp.2021.106078,0 to 0.45,0,0.45,0.45,2,582,10.346,1.54,,15-rGO/NimoO4,4.3365,0.02,1.0447,,,,KOH,6,3,three-electrode system
DOI: 10.1016/j.mssp.2021.106078,0 to 0.45,0,0.45,0.45,3,574,10.346,1.54,,15-rGO/NimoO4,4.3365,0.02,1.0447,,,,KOH,6,3,three-electrode system
DOI: 10.1016/j.mssp.2021.106078,0 to 0.45,0,0.45,0.45,4,550,10.346,1.54,,15-rGO/NimoO4,4.3365,0.02,1.0447,,,,KOH,6,3,three-electrode system
DOI: 10.1016/j.mssp.2021.106078,0 to 0.45,0,0.45,0.45,5,533,10.346,1.54,,15-rGO/NimoO4,4.3365,0.02,1.0447,,,,KOH,6,3,three-electrode system
DOI: 10.1016/j.mssp.2021.106078,0 to 0.45,0,0.45,0.45,6,520,10.346,1.54,,15-rGO/NimoO4,4.3365,0.02,1.0447,,,,KOH,6,3,three-electrode system
DOI: 10.1016/j.mssp.2021.106078,0 to 0.45,0,0.45,0.45,7,513,10.346,1.54,,15-rGO/NimoO4,4.3365,0.02,1.0447,,,,KOH,6,3,three-electrode system
DOI: 10.1016/j.cej.2021.129396,-0.4 to 0.5,-0.4,0.5,0.9,1,397,,2.30,,G-Ni-W,,,1.013,0,67.94,27.23,Na2SO4,3,1,three-electrode system
DOI: 10.1016/j.cej.2021.129396,-0.4 to 0.7,-0.4,0.7,1.1,1,557,,0.98,,PPy-G-Ni-W,,,,23.74,66.2,7.51,Na2SO4,3,1,three-electrode system
DOI: 10.1016/j.cej.2021.131535,-0.3 to 0.4,-0.3,0.4,0.7,1,298,83.11,0.52,,CCS@GO,16.247,0.2913,0.865,0,12.35,6.84,KOH,6,3,three-electrode system
DOI: 10.1016/j.cej.2021.131535,-0.3 to 0.4,-0.3,0.4,0.7,8,152,83.11,0.52,,CCS@GO,16.247,0.2913,0.865,0,12.35,6.84,KOH,6,3,three-electrode system
DOI: 10.1016/j.cej.2021.131535,-0.3 to 0.4,-0.3,0.4,0.7,1,119,57.44,,,CuSe@GO,27.733,0.2391,0.849,,,,KOH,6,3,three-electrode system
DOI: 10.1016/j.cej.2021.131535,-0.3 to 0.4,-0.3,0.4,0.7,1,206,39.34,,,CoSe2@GO,44.131,0.2181,0.852,,,,KOH,6,3,three-electrode system
DOI: 10.1016/j.jelechem.2019.01.051,-0.2 to 0.6,-0.2,0.6,0.8,0.5,178,18.3,,,C-POmOF@rGO,,,,,,,,,,
DOI: 10.1016/j.jelechem.2019.01.051,-0.2 to 0.6,-0.2,0.6,0.8,1,157,18.3,,,C-POmOF@rGO,,,,,,,,,,
DOI: 10.1016/j.jelechem.2019.01.051,-0.2 to 0.6,-0.2,0.6,0.8,2,146,18.3,,,C-POmOF@rGO,,,,,,,,,,
DOI: 10.1016/j.jelechem.2019.01.051,-0.2 to 0.6,-0.2,0.6,0.8,3,137,18.3,,,C-POmOF@rGO,,,,,,,,,,
DOI: 10.1016/j.jelechem.2019.01.051,-0.2 to 0.6,-0.2,0.6,0.8,5,82,18.3,,,C-POmOF@rGO,,,,,,,,,,
DOI: 10.1016/j.jelechem.2019.113193,0 to 0.9,0,0.9,0.9,1,176,,,,HQSA-rGO/CF,,,,,,,H2SO4,7,1,three-electrode system
DOI: 10.1016/j.jelechem.2019.113193,0 to 0.9,0,0.9,0.9,0.5,220,,,,HQSA-rGO/CF,,,,,,,H2SO4,7,1,three-electrode system
DOI: 10.1016/j.matpr.2019.03.211,0 to 1.0,0,1,1,2,50,870,,,AC/CuO (5%) RGO (2%),,,,,,,KOH,6,3,
DOI: 10.1016/j.matpr.2019.03.211,0 to 1.0,0,1,1,2,34,678,,,AC/TiO2 (5%) RGO (2%),,,,,,,KOH,6,3,
DOI: 10.1016/j.matpr.2019.03.211,0 to 1.0,0,1,1,2,80,1120,,,AC/mO2 (5%) RGO (2%),,,,,,,KOH,6,3,
DOI: 10.1016/j.est.2020.101539,-0.2 to 0.7,-0.2,0.7,0.9,0.57,910,99.5,8.50,,HOrGO/TmOs,,,0.76,0,58.35,14.73,KOH,6,0.1,
DOI: 10.1016/j.est.2021.102724,-0.4 to 0.7,-0.4,0.7,1.1,2.5,270.5,133.2,18.50,8.70,rGO@Co3O4/CoO,,,0.88,0,37.32,35.72,KOH,6,0.1,three-electrode system
DOI: 10.1016/j.est.2021.102724,-0.4 to 0.7,-0.4,0.7,1.1,2.75,209.2,133.2,18.50,8.70,rGO@Co3O4/CoO,,,0.88,0,37.32,35.72,KOH,6,0.1,three-electrode system
DOI: 10.1016/j.est.2021.102724,-0.4 to 0.7,-0.4,0.7,1.1,3,175.3,133.2,18.50,8.70,rGO@Co3O4/CoO,,,0.88,0,37.32,35.72,KOH,6,0.1,three-electrode system
DOI: 10.1016/j.est.2021.102724,-0.4 to 0.7,-0.4,0.7,1.1,3.25,160.6,133.2,18.50,8.70,rGO@Co3O4/CoO,,,0.88,0,37.32,35.72,KOH,6,0.1,three-electrode system
DOI: 10.1016/j.est.2021.102724,-0.4 to 0.7,-0.4,0.7,1.1,3.5,140.7,133.2,18.50,8.70,rGO@Co3O4/CoO,,,0.88,0,37.32,35.72,KOH,6,0.1,three-electrode system
DOI: 10.1016/j.est.2021.102724,-0.4 to 0.7,-0.4,0.7,1.1,3.75,130.1,133.2,18.50,8.70,rGO@Co3O4/CoO,,,0.88,0,37.32,35.72,KOH,6,0.1,three-electrode system
DOI: 10.1016/j.est.2021.102724,-0.4 to 0.7,-0.4,0.7,1.1,4,122.5,133.2,18.50,8.70,rGO@Co3O4/CoO,,,0.88,0,37.32,35.72,KOH,6,0.1,three-electrode system
DOI: 10.1016/j.est.2021.102724,-0.4 to 0.7,-0.4,0.7,1.1,4.25,118.3,133.2,18.50,8.70,rGO@Co3O4/CoO,,,0.88,0,37.32,35.72,KOH,6,0.1,three-electrode system
DOI: 10.1016/j.surfin.2021.101572,-0.5 to 0.5,-0.5,0.5,1,1,442,128,1.54,,Fe-PrGO,,,0.97,8.91,71.45,15.5,KCl,4,1,three-electrode system
DOI: 10.1016/j.surfin.2021.101572,-0.5 to 0.5,-0.5,0.5,1,1,252,92,,,PrGO,,,0.71,,,,KCl,4,1,three-electrode system
DOI: 10.1021/am5042065,0 to 1.0,0,1,1,0.2,223,830,,,nitrogen-doped graphene aerogel (NGA),10.8,1.6,0.97,8.4,82.4,9.2,H2SO4,7,1,two-electrode system
DOI: 10.1021/am5042065,0 to 1.0,0,1,1,10,176,830,,,nitrogen-doped graphene aerogel (NGA),10.8,1.6,0.97,8.4,82.4,9.2,H2SO4,7,1,two-electrode system
DOI: 10.1021/am4003827,0 to 0.8,0,0.8,0.8,1,614,,,,PANI-HS36@ERGO hybrids,,,,,,,H2SO4,7,1,three-electrode system
DOI: 10.1021/am2016848,0 to 1.0,0,1,1,5,105,265,,,mnC/RGO (mnC-G37),,,,,,,Na2SO4,3,1,three-electrode system
DOI: 10.1021/am2016848,0 to 1.0,0,1,1,0.2,193,265,,,mnC/RGO (mnC-G37),,,,,,,Na2SO4,3,1,three-electrode system
DOI: 10.1021/am2016848,0 to 1.0,0,1,1,0.2,69,371,,,CNT-G,,,,,,,Na2SO4,3,1,three-electrode system
DOI: 10.1021/am403663f,-0.1 to 0.9,-0.1,0.9,1,1,275,,,,WS2/RGO,,,,,,,Na2SO4,3,1,two-electrode system
DOI: 10.1021/am403663f,-0.1 to 0.9,-0.1,0.9,1,0.5,350,,,,WS2/RGO,,,,,,,Na2SO4,3,1,two-electrode system
DOI: 10.1021/am402686r,-1.0 to 0,-1,0,1,1,370,463,,,TTNAG graphene framework,,2.23,,6.59,54.18,,NaOH,,6,three-electrode system
DOI: 10.1021/am402686r,-1.0 to 0,-1,0,1,2,290,463,,,TTNAG graphene framework,,2.23,,6.59,54.18,,NaOH,,6,three-electrode system
DOI: 10.1021/am402686r,-1.0 to 0,-1,0,1,5,250,463,,,TTNAG graphene framework,,2.23,,6.59,54.18,,NaOH,,6,three-electrode system
DOI: 10.1021/am402686r,-1.0 to 0,-1,0,1,10,210,463,,,TTNAG graphene framework,,2.23,,6.59,54.18,,NaOH,,6,three-electrode system
DOI: 10.1021/am402686r,-1.0 to 0,-1,0,1,15,190,463,,,TTNAG graphene framework,,2.23,,6.59,54.18,,NaOH,,6,three-electrode system
DOI: 10.1021/am402686r,-1.0 to 0,-1,0,1,20,180,463,,,TTNAG graphene framework,,2.23,,6.59,54.18,,NaOH,,6,three-electrode system
DOI: 10.1021/am402686r,-1.0 to 0,-1,0,1,1,195,215,,,TTG,,1.01,,,,,NaOH,,6,three-electrode system
DOI: 10.1021/am402686r,-1.0 to 0,-1,0,1,2,150,215,,,TTG,,1.01,,,,,NaOH,,6,three-electrode system
DOI: 10.1021/am402686r,-1.0 to 0,-1,0,1,5,125,215,,,TTG,,1.01,,,,,NaOH,,6,three-electrode system
DOI: 10.1021/am402686r,-1.0 to 0,-1,0,1,10,100,215,,,TTG,,1.01,,,,,NaOH,,6,three-electrode system
DOI: 10.1021/am402686r,-1.0 to 0,-1,0,1,15,90,215,,,TTG,,1.01,,,,,NaOH,,6,three-electrode system
DOI: 10.1021/am402686r,-1.0 to 0,-1,0,1,20,80,215,,,TTG,,1.01,,,,,NaOH,,6,three-electrode system
DOI: 10.1021/acssuschemeng.9b00233,0 to 1.0,0,1,1,1,354,,,,"oxygen-rich
hierarchical porous graphene (O-PG)",,,1.21,,,,H2SO4,7,1,two-electrode system
DOI: 10.1021/acssuschemeng.8b05132,0 to 0.45,0,0.45,0.45,4,205.12,,,,"WO3-rGO hybrid
(WG-20)",,,,,,,KOH,6,3,three-electrode system
DOI: 10.1021/acssuschemeng.8b05132,0 to 0.45,0,0.45,0.45,12,128.89,,,,"WO3-rGO hybrid
(WG-20)",,,,,,,KOH,6,3,three-electrode system
DOI: 10.1021/acssuschemeng.8b05132,0 to 0.45,0,0.45,0.45,4,398,,,,WG-40,,,,,,,KOH,6,3,three-electrode system
DOI: 10.1021/acssuschemeng.8b05132,0 to 0.45,0,0.45,0.45,12,232,,,,WG-40,,,,,,,KOH,6,3,three-electrode system
DOI: 10.1021/acssuschemeng.8b05132,0 to 0.45,0,0.45,0.45,4,801.6,38.667,,,WG-80,,,,0,21.33,54.28,KOH,6,3,three-electrode system
DOI: 10.1021/acssuschemeng.8b05132,0 to 0.45,0,0.45,0.45,5,707.2,38.667,,,WG-80,,,,0,21.33,54.28,KOH,6,3,three-electrode system
DOI: 10.1021/acssuschemeng.8b05132,0 to 0.45,0,0.45,0.45,8,587.3,38.667,,,WG-80,,,,0,21.33,54.28,KOH,6,3,three-electrode system
DOI: 10.1021/acssuschemeng.8b05132,0 to 0.45,0,0.45,0.45,10,526,38.667,,,WG-80,,,,0,21.33,54.28,KOH,6,3,three-electrode system
DOI: 10.1021/acssuschemeng.8b05132,0 to 0.45,0,0.45,0.45,12,447.13,38.667,,,WG-80,,,,0,21.33,54.28,KOH,6,3,three-electrode system
DOI: 10.1021/acssuschemeng.8b05132,0 to 0.45,0,0.45,0.45,4,227,,,,WG-120,,,,,,,KOH,6,3,three-electrode system
DOI: 10.1021/acssuschemeng.8b05132,0 to 0.45,0,0.45,0.45,12,132.8,,,,WG-120,,,,,,,KOH,6,3,three-electrode system
DOI: 10.1021/acssuschemeng.8b04447,-0.2 to 0.8,-0.2,0.8,1,0.5,208.3,,,,PGm-6,,,,,,,Na2SO4,3,1,three-electrode system
DOI: 10.1021/acssuschemeng.8b04447,-0.2 to 0.8,-0.2,0.8,1,1,178.7,,,,PGm-6,,,,,,,Na2SO4,3,1,three-electrode system
DOI: 10.1021/acssuschemeng.8b04447,-0.2 to 0.8,-0.2,0.8,1,2,154.4,,,,PGm-6,,,,,,,Na2SO4,3,1,three-electrode system
DOI: 10.1021/acssuschemeng.8b04447,-0.2 to 0.8,-0.2,0.8,1,5,126,,,,PGm-6,,,,,,,Na2SO4,3,1,three-electrode system
DOI: 10.1021/acssuschemeng.8b04447,-0.2 to 0.8,-0.2,0.8,1,8,110.4,,,,PGm-6,,,,,,,Na2SO4,3,1,three-electrode system
DOI: 10.1021/acssuschemeng.8b04447,-0.2 to 0.8,-0.2,0.8,1,10,107,,,,PGm-6,,,,,,,Na2SO4,3,1,three-electrode system
DOI: 10.1021/acssuschemeng.6b01367,-0.2 to 0.4,-0.2,0.4,0.6,3,1256,,,0.58,"Ternary ZnCo2O4/reduced graphene oxide/NiO
(ZCGNO)",,,1.1,0,18.45,44.31,KOH,6,6,three-electrode system
DOI: 10.1021/acssuschemeng.6b01367,-0.2 to 0.4,-0.2,0.4,0.6,5,1115,,,0.58,"Ternary ZnCo2O4/reduced graphene oxide/NiO
(ZCGNO)",,,1.1,0,18.45,44.31,KOH,6,6,three-electrode system
DOI: 10.1021/acssuschemeng.6b01367,-0.2 to 0.4,-0.2,0.4,0.6,10,716.6,,,0.58,"Ternary ZnCo2O4/reduced graphene oxide/NiO
(ZCGNO)",,,1.1,0,18.45,44.31,KOH,6,6,three-electrode system
DOI: 10.1021/acssuschemeng.6b01367,-0.2 to 0.4,-0.2,0.4,0.6,15,685,,,0.58,"Ternary ZnCo2O4/reduced graphene oxide/NiO
(ZCGNO)",,,1.1,0,18.45,44.31,KOH,6,6,three-electrode system
DOI: 10.1021/acssuschemeng.6b01367,-0.2 to 0.4,-0.2,0.4,0.6,25,666.6,,,0.58,"Ternary ZnCo2O4/reduced graphene oxide/NiO
(ZCGNO)",,,1.1,0,18.45,44.31,KOH,6,6,three-electrode system
DOI: 10.1021/acsami.9b04649,-0.1 to 0.7,-0.1,0.7,0.8,0.5,147.1,,,,"[Ag5 (C2H2N3) 6 ][H5 âŠ‚ Simo]@5%GO-based electrode
(1@5%GO-based electrode)",,,,,,,H2SO4,7,0.5,three-electrode system
DOI: 10.1021/acsami.9b04649,-0.1 to 0.7,-0.1,0.7,0.8,0.5,217.1,,,,1@10%GO-based electrode,,,,,,,H2SO4,7,0.5,three-electrode system
DOI: 10.1021/acsami.9b04649,-0.1 to 0.7,-0.1,0.7,0.8,0.5,230.2,,,,(1@15%GO-based electrode),,,,,,,H2SO4,7,0.5,three-electrode system
DOI: 10.1021/acsami.9b04649,-0.1 to 0.7,-0.1,0.7,0.8,0.5,104.2,,,,1@20%GO-based electrode,,,,,,,H2SO4,7,0.5,three-electrode system
DOI: 10.1021/acsami.8b02354,0 to 1.0,0,1,1,1,113,,,,GH,,,1.7,,,,Na2SO4,3,1,three-electrode system
DOI: 10.1021/acsami.8b02354,0 to 1.0,0,1,1,1,200.6,,,,mnO2/GH,,,1.37,,,,Na2SO4,3,1,three-electrode system
DOI: 10.1021/acsami.7b05965,0 to 1.0,0,1,1,1,425,1236,,,F3 film,,,1.01,6.7,79.6,13.7,H2SO4,7,1,three-electrode system
DOI: 10.1021/acsami.7b05965,0 to 1.0,0,1,1,20,315,1236,,,F3 film,,,1.01,6.7,79.6,13.7,H2SO4,7,1,three-electrode system
DOI: 10.1021/acsami.7b05965,0 to 1.0,0,1,1,1,290,1150,,,F2 film,,,1.05,3.2,84,12.8,H2SO4,7,1,three-electrode system
DOI: 10.1021/acsami.7b05965,0 to 1.0,0,1,1,20,203,1150,,,F2 film,,,1.05,3.2,84,12.8,H2SO4,7,1,three-electrode system
DOI: 10.1021/acsami.7b05965,0 to 1.0,0,1,1,1,228,1162,,,F1 film,,,1.1,2.3,81.3,16.4,H2SO4,7,1,three-electrode system
DOI: 10.1021/acsami.7b05965,0 to 1.0,0,1,1,20,134.52,1162,,,F1 film,,,1.1,2.3,81.3,16.4,H2SO4,7,1,three-electrode system
DOI: 10.1021/acsami.6b05415,-1.05 to 0.25,-1.05,0.25,1.3,0.5,586,113.4,,,C-G/AFC,,0.39,,,,,KOH,6,6,three-electrode system
DOI: 10.1021/acsami.6b05415,-1.05 to 0.25,-1.05,0.25,1.3,1,519,113.4,,,C-G/AFC,,0.39,,,,,KOH,6,6,three-electrode system
DOI: 10.1021/acsami.6b05415,-1.05 to 0.25,-1.05,0.25,1.3,10,340,113.4,,,C-G/AFC,,0.39,,,,,KOH,6,6,three-electrode system
DOI: 10.1021/acsami.6b05415,-1.05 to 0.25,-1.05,0.25,1.3,1,319,49.1,,,C-AFC,,0.04,,,,,KOH,6,6,three-electrode system
DOI: 10.1021/acsami.6b05415,-1.05 to 0.25,-1.05,0.25,1.3,0.5,156,126.4,,,C-G/AC,,0.18,,,,,KOH,6,6,three-electrode system
DOI: 10.1021/acsami.6b00225,-1.0 to 0,-1,0,1,1,274,,,,Fe2O3NDs@NG-0.75,,,1.04,,,,KOH,6,2,three-electrode system
DOI: 10.1021/acsami.6b00225,-1.0 to 0,-1,0,1,2,234,,,,Fe2O3NDs@NG-0.75,,,1.04,,,,KOH,6,2,three-electrode system
DOI: 10.1021/acsami.6b00225,-1.0 to 0,-1,0,1,5,201,,,,Fe2O3NDs@NG-0.75,,,1.04,,,,KOH,6,2,three-electrode system
DOI: 10.1021/acsami.6b00225,-1.0 to 0,-1,0,1,8,187,,,,Fe2O3NDs@NG-0.75,,,1.04,,,,KOH,6,2,three-electrode system
DOI: 10.1021/acsami.6b00225,-1.0 to 0,-1,0,1,10,181,,,,Fe2O3NDs@NG-0.75,,,1.04,,,,KOH,6,2,three-electrode system
DOI: 10.1021/acsami.6b00225,-1.0 to 0,-1,0,1,20,168,,,,Fe2O3NDs@NG-0.75,,,1.04,,,,KOH,6,2,three-electrode system
DOI: 10.1021/acsami.6b00225,-1.0 to 0,-1,0,1,50,140,,,,Fe2O3NDs@NG-0.75,,,1.04,,,,KOH,6,2,three-electrode system
DOI: 10.1021/acsami.6b00225,-1.0 to 0,-1,0,1,50,140,,,,Fe2O3NDs@NG-0.75,,,1.04,,,,KOH,6,2,three-electrode system
DOI: 10.1021/acsami.6b00225,-1.0 to 0,-1,0,1,1,255,,,,Fe2O3NDs@NG-1,,,,,,,KOH,6,2,three-electrode system
DOI: 10.1021/acsami.6b00225,-1.0 to 0,-1,0,1,1,228,,,,Fe2O3NDs@NG-0.50,,,,,,,KOH,6,2,three-electrode system
DOI: 10.1021/acsami.6b00225,-1.0 to 0,-1,0,1,1,224,,,,Fe2O3NDs@NG-0.25,,,,,,,KOH,6,2,three-electrode system
DOI: 10.1021/acsami.5b10781,0 to 0.5,0,0.5,0.5,1,2474,12.15,,2.00,(Co-LmOF),3.8,0.168,,,,,KOH,6,1,three-electrode system
DOI: 10.1021/acsami.5b10781,0 to 0.5,0,0.5,0.5,2,1978,12.15,,2.00,(Co-LmOF),3.8,0.168,,,,,KOH,6,1,three-electrode system
DOI: 10.1021/acsami.5b10781,0 to 0.5,0,0.5,0.5,4,1728,12.15,,2.00,(Co-LmOF),3.8,0.168,,,,,KOH,6,1,three-electrode system
DOI: 10.1021/acsami.5b10781,0 to 0.5,0,0.5,0.5,6,1607,12.15,,2.00,(Co-LmOF),3.8,0.168,,,,,KOH,6,1,three-electrode system
DOI: 10.1021/acsami.5b10781,0 to 0.5,0,0.5,0.5,8,1514,12.15,,2.00,(Co-LmOF),3.8,0.168,,,,,KOH,6,1,three-electrode system
DOI: 10.1021/acsami.5b10781,0 to 0.5,0,0.5,0.5,20,1024,12.15,,2.00,(Co-LmOF),3.8,0.168,,,,,KOH,6,1,three-electrode system
DOI: 10.1021/acsami.5b04336,0 to 1.2,0,1.2,1.2,0.7,600.19,,,,3D:Co-nb@CG,,,1.01,0,84.6,10.43,KOH,6,,two-electrode system
DOI: 10.1021/acsami.5b04336,0 to 1.2,0,1.2,1.2,1.1,542.73,,,,3D:Co-nb@CG,,,1.01,0,84.6,10.43,KOH,6,,two-electrode system
DOI: 10.1021/acsami.5b04336,0 to 1.2,0,1.2,1.2,1.5,509.85,,,,3D:Co-nb@CG,,,1.01,0,84.6,10.43,KOH,6,,two-electrode system
DOI: 10.1021/acsami.5b04336,0 to 1.2,0,1.2,1.2,1.9,494.84,,,,3D:Co-nb@CG,,,1.01,0,84.6,10.43,KOH,6,,two-electrode system
DOI: 10.1021/acsami.5b04336,0 to 1.2,0,1.2,1.2,2.3,489.87,,,,3D:Co-nb@CG,,,1.01,0,84.6,10.43,KOH,6,,two-electrode system
DOI: 10.1021/acsami.5b04336,0 to 1.2,0,1.2,1.2,2.7,484.8,,,,3D:Co-nb@CG,,,1.01,0,84.6,10.43,KOH,6,,two-electrode system
DOI: 10.1021/acsami.5b04336,0 to 1.2,0,1.2,1.2,3.1,480.78,,,,3D:Co-nb@CG,,,1.01,0,84.6,10.43,KOH,6,,two-electrode system
DOI: 10.1021/acsami.5b04336,0 to 1.2,0,1.2,1.2,3.5,479.83,,,,3D:Co-nb@CG,,,1.01,0,84.6,10.43,KOH,6,,two-electrode system
DOI: 10.1021/acsami.5b04336,0 to 1.2,0,1.2,1.2,3.9,479,,,,3D:Co-nb@CG,,,1.01,0,84.6,10.43,KOH,6,,two-electrode system
DOI: 10.1021/acsami.5b04336,0 to 1.2,0,1.2,1.2,4.5,478.93,,,,3D:Co-nb@CG,,,1.01,0,84.6,10.43,KOH,6,,two-electrode system
DOI: 10.1021/acsami.5b04336,0 to 1.2,0,1.2,1.2,4.5,384.9,,,,Co-np@G,,,0.89,,,,KOH,6,,two-electrode system
DOI: 10.1021/acsami.5b04336,0 to 1.2,0,1.2,1.2,4.5,414.6,,,,Co-abd@CG,,,0.99,,,,KOH,6,,two-electrode system
DOI: 10.1002/smll.201602077,-0.1 to 0.5,-0.1,0.5,0.6,1,1765,,,,3D graphene frameworks/Co3O4,,,,,,,NaOH,,0.1,three-electrode system
DOI: 10.1002/smll.201602077,-0.1 to 0.5,-0.1,0.5,0.6,5,1517,,,,3D graphene frameworks/Co3O4,,,,,,,NaOH,,0.1,three-electrode system
DOI: 10.1002/smll.201602077,-0.1 to 0.5,-0.1,0.5,0.6,10,1483,,,,3D graphene frameworks/Co3O4,,,,,,,NaOH,,0.1,three-electrode system
DOI: 10.1002/smll.201602077,-0.1 to 0.5,-0.1,0.5,0.6,20,1266,,,,3D graphene frameworks/Co3O4,,,,,,,NaOH,,0.1,three-electrode system
DOI: 10.1002/chem.201501245,0 to 0.8,0,0.8,0.8,0.2,420,20.103,,,PANI-G,16.2,,,,,,H2SO4,7,1,three-electrode system
DOI: 10.1002/chem.201501245,0 to 0.8,0,0.8,0.8,0.2,620,27.884,,,PANI-GN,10.8,,,,,,H2SO4,7,1,three-electrode system
DOI: 10.1002/chem.201501245,0 to 0.8,0,0.8,0.8,0.2,520,36.579,,,PANI-GO,6.2,,,,,,H2SO4,7,1,three-electrode system
DOI: 10.1002/chem.201501245,0 to 0.8,0,0.8,0.8,0.2,863.2,49.023,,,PANI-GS,3.9,,,,,,H2SO4,7,1,three-electrode system
DOI: 10.1002/slct.202101207,-0.2 to 0.8,-0.2,0.8,1,1,184,,,,graphene paper (GP),,,2.4,,,,H2SO4,7,1,three-electrode system
DOI: 10.1002/slct.202101207,-0.2 to 0.8,-0.2,0.8,1,2,86,,,,graphene paper (GP),,,2.4,,,,H2SO4,7,1,three-electrode system
DOI: 10.1002/slct.202101207,-0.2 to 0.8,-0.2,0.8,1,5,37,,,,graphene paper (GP),,,2.4,,,,H2SO4,7,1,three-electrode system
DOI: 10.1002/slct.202101207,-0.2 to 0.8,-0.2,0.8,1,10,18,,,,graphene paper (GP),,,2.4,,,,H2SO4,7,1,three-electrode system
DOI: 10.1002/slct.202101207,-0.2 to 0.8,-0.2,0.8,1,1,236,,,,GP/mnO2-10s,,,1.79,,,,H2SO4,7,1,three-electrode system
DOI: 10.1002/slct.202101207,-0.2 to 0.8,-0.2,0.8,1,2,181,,,,GP/mnO2-10s,,,1.79,,,,H2SO4,7,1,three-electrode system
DOI: 10.1002/slct.202101207,-0.2 to 0.8,-0.2,0.8,1,5,20,,,,GP/mnO2-10s,,,1.79,,,,H2SO4,7,1,three-electrode system
DOI: 10.1002/slct.202101207,-0.2 to 0.8,-0.2,0.8,1,10,18,,,,GP/mnO2-10s,,,1.79,,,,H2SO4,7,1,three-electrode system
DOI: 10.1002/slct.202101207,-0.2 to 0.8,-0.2,0.8,1,1,410,,,,GP/mnO2-30s,,,1.79,,,,H2SO4,7,1,three-electrode system
DOI: 10.1002/slct.202101207,-0.2 to 0.8,-0.2,0.8,1,2,312,,,,GP/mnO2-30s,,,1.79,,,,H2SO4,7,1,three-electrode system
DOI: 10.1002/slct.202101207,-0.2 to 0.8,-0.2,0.8,1,5,118,,,,GP/mnO2-30s,,,1.79,,,,H2SO4,7,1,three-electrode system
DOI: 10.1002/slct.202101207,-0.2 to 0.8,-0.2,0.8,1,10,25,,,,GP/mnO2-30s,,,1.79,,,,H2SO4,7,1,three-electrode system
DOI: 10.1002/slct.202101207,-0.2 to 0.8,-0.2,0.8,1,1,327,,,,GP/mnO2-50s,,,1.79,,,,H2SO4,7,1,three-electrode system
DOI: 10.1002/slct.202101207,-0.2 to 0.8,-0.2,0.8,1,2,182,,,,GP/mnO2-50s,,,1.79,,,,H2SO4,7,1,three-electrode system
DOI: 10.1002/slct.202101207,-0.2 to 0.8,-0.2,0.8,1,5,116,,,,GP/mnO2-50s,,,1.79,,,,H2SO4,7,1,three-electrode system
DOI: 10.1002/slct.202101207,-0.2 to 0.8,-0.2,0.8,1,10,23,,,,GP/mnO2-50s,,,1.79,,,,H2SO4,7,1,three-electrode system
DOI: 10.1002/cjoc.201700209,-1.0 to 0,-1,0,1,0.5,458.7,262.1,1.50,,GHs-Glu-best,37,,,0,85.11,14.89,KOH,6,5,three-electrode system
DOI: 10.1002/cjoc.201700209,-1.0 to 0,-1,0,1,1,384.6,262.1,1.50,,GHs-Glu-best,37,,,0,85.11,14.89,KOH,6,5,three-electrode system
DOI: 10.1002/cjoc.201700209,-1.0 to 0,-1,0,1,3,250,262.1,1.50,,GHs-Glu-best,37,,,0,85.11,14.89,KOH,6,5,three-electrode system
DOI: 10.1002/er.3543,0.1 to 0.6,0.1,0.6,0.5,1,122,,,,Graphene/NF,,,0.85,,,,KOH,6,6,three-electrode system
DOI: 10.1002/er.3543,0.1 to 0.6,0.1,0.6,0.5,2,120,,,,Graphene/NF,,,0.85,,,,KOH,6,6,three-electrode system
DOI: 10.1002/er.3543,0.1 to 0.6,0.1,0.6,0.5,3,124.4,,,,Graphene/NF,,,0.85,,,,KOH,6,6,three-electrode system
DOI: 10.1002/er.3543,0.1 to 0.6,0.1,0.6,0.5,4,128,,,,Graphene/NF,,,0.85,,,,KOH,6,6,three-electrode system
DOI: 10.1002/er.3543,0.1 to 0.6,0.1,0.6,0.5,5,105,,,,Graphene/NF,,,0.85,,,,KOH,6,6,three-electrode system
DOI: 10.1002/aenm.201401890,0 to 1.0,0,1,1,1,769,,,,"VO/Ultralarge Graphene
(VURGO)",,,1.82,,,,K2SO4,,0.5,three-electrode system
DOI: 10.1002/aenm.201401890,0 to 1.0,0,1,1,1,385,,,,"VO/Ultralarge Graphene
(VURGO)",,,,,,,K2SO4,,0.5,three-electrode system
DOI: 10.1002/aenm.201401890,0 to 1.0,0,1,1,1,286,,,,URGO,,,,,,,K2SO4,,0.5,three-electrode system
DOI: 10.1002/ente.202001025,-1.0 to 0,-1,0,1,1,83.4,179,2.20,0.92,G-600,,0.14,2.61,,,,KOH,6,6,three-electrode system
DOI: 10.1002/ente.202001025,-1.0 to 0,-1,0,1,1,125.1,269,1.20,0.83,G-700,,0.19,2.74,,,,KOH,6,6,three-electrode system
DOI: 10.1002/ente.202001025,-1.0 to 0,-1,0,1,1,183.9,484,0.40,0.78,G-800,,0.33,2.88,,,,KOH,6,6,three-electrode system
DOI: 10.1002/ente.202001025,-1.0 to 0,-1,0,1,1,190.6,514,0.20,0.76,G-900,,0.38,2.9,,,,KOH,6,6,three-electrode system
DOI: 10.1002/ente.202001025,-1.0 to 0,-1,0,1,2,150.7,514,0.20,0.76,G-900,,0.38,2.9,,,,KOH,6,6,three-electrode system
DOI: 10.1002/ente.202001025,-1.0 to 0,-1,0,1,5,130.7,514,0.20,0.76,G-900,,0.38,2.9,,,,KOH,6,6,three-electrode system
DOI: 10.1002/ente.202001025,-1.0 to 0,-1,0,1,10,120.1,514,0.20,0.76,G-900,,0.38,2.9,,,,KOH,6,6,three-electrode system
DOI: 10.1002/ente.201900578,-1.0 to 0,-1,0,1,1,15,314,,,G0-0%,8.2,0.42,0.864,0,88.4,11,KOH,6,6,three-electrode system
DOI: 10.1002/ente.201900578,-1.0 to 0,-1,0,1,1,120,720,,0.22,G1-5%,1.8,0.24,0.147,0,81,14.7,KOH,6,6,three-electrode system
DOI: 10.1002/ente.201900578,-1.0 to 0,-1,0,1,10,102,720,,0.22,G1-5%,1.8,0.24,0.147,0,81,14.7,KOH,6,6,three-electrode system
DOI: 10.1002/ente.201900578,-1.0 to 0,-1,0,1,1,94,546,,0.39,G2-10%,3.1,0.35,0.153,0,96.8,2.9,KOH,6,6,three-electrode system
DOI: 10.1002/ente.201900578,-1.0 to 0,-1,0,1,10,75.2,546,,0.39,G2-10%,3.1,0.35,0.153,0,96.8,2.9,KOH,6,6,three-electrode system
DOI: 10.1002/ente.201900578,-1.0 to 0,-1,0,1,1,61,424,,0.48,G3-15%,6.5,0.42,0.201,0,97.3,2.2,KOH,6,6,three-electrode system
DOI: 10.1002/ente.201900578,-1.0 to 0,-1,0,1,10,42.09,424,,0.48,G3-15%,6.5,0.42,0.201,0,97.3,2.2,KOH,6,6,three-electrode system
DOI: 10.1002/chem.201605212,0 to 0.55,0,0.55,0.55,1,2258,,,,NF-NN-G-5mg,,,,,,,KOH,6,3,three-electrode system
DOI: 10.1002/chem.201605212,0 to 0.55,0,0.55,0.55,5,1145,,,,NF-NN-G-5mg,,,,,,,KOH,6,3,three-electrode system
DOI: 10.1002/chem.201605212,0 to 0.55,0,0.55,0.55,20,1010,,,,NF-NN-G-5mg,,,,,,,KOH,6,3,three-electrode system
DOI: 10.1002/jctb.6147,-1.0 to 0,-1,0,1,1,225.2,,,,nitrogen-doped graphene (NG-800),,,0.84,12.45,,,KOH,6,6,three-electrode system
DOI: 10.1002/jctb.6147,-1.0 to 0,-1,0,1,5,188.75,,,,nitrogen-doped graphene (NG-800),,,0.84,12.45,,,KOH,6,6,three-electrode system
DOI: 10.1002/gch2.201900043,-1.0 to -0.1,-1,-0.1,0.9,0.5,275,1734,,,"N,S-GLC",0.53,0.68,0.89,2.1,92.93,4.26,KOH,6,6,three-electrode system
DOI: 10.1002/gch2.201900043,-1.0 to -0.1,-1,-0.1,0.9,2,230,1734,,,"N,S-GLC",0.53,0.68,0.89,2.1,92.93,4.26,KOH,6,6,three-electrode system
DOI: 10.1002/gch2.201900043,-1.0 to -0.1,-1,-0.1,0.9,9,200,1734,,,"N,S-GLC",0.53,0.68,0.89,2.1,92.93,4.26,KOH,6,6,three-electrode system
DOI: 10.1002/gch2.201900043,-1.0 to -0.1,-1,-0.1,0.9,20,180,1734,,,"N,S-GLC",0.53,0.68,0.89,2.1,92.93,4.26,KOH,6,6,three-electrode system
DOI: 10.1002/slct.201900242,-1.0 to 0,-1,0,1,2,120,,,,PDA-rGO,,,1.11,,,,,,,three-electrode system
DOI: 10.1002/slct.201900242,-1.0 to 0,-1,0,1,1,200,,,,PDA-rGO,,,1.11,,,,,,,three-electrode system
DOI: 10.1002/cjoc.201600217,0 to 0.8,0,0.8,0.8,0.1,321.7,,,,mPG,,,,,,,H2SO4,7,1,three-electrode system
DOI: 10.1002/cjoc.201600217,0 to 0.8,0,0.8,0.8,0.1,116.4,,,,PANI/graphene,,,,,,,H2SO4,7,1,three-electrode system
DOI: 10.1002/cssc.201500355,0 to 0.5,0,0.5,0.5,0.5,660,140.7,,,3D Co3O4-RGO aerogel,,0.31,,,,,,,,three-electrode system
DOI: 10.1002/cssc.201500355,0 to 0.5,0,0.5,0.5,10,500,140.7,,,3D Co3O4-RGO aerogel,,0.31,,,,,,,,three-electrode system
DOI: 10.1002/cssc.201500355,0 to 0.5,0,0.5,0.5,50,430,140.7,,,3D Co3O4-RGO aerogel,,0.31,,,,,,,,three-electrode system
DOI: 10.1002/APP.44724,0 to 0.8,0,0.8,0.8,0.5,472,,,,Ag-PPy/Gr,,,0.86,,,,KCl,4,1,two-electrode system
DOI: 10.1002/APP.44724,0 to 0.8,0,0.8,0.8,1,360,,,,Ag-PPy/Gr,,,0.86,,,,KCl,4,1,two-electrode system
DOI: 10.1002/APP.44724,0 to 0.8,0,0.8,0.8,1.5,260,,,,Ag-PPy/Gr,,,0.86,,,,KCl,4,1,two-electrode system
DOI: 10.1002/APP.44724,0 to 0.8,0,0.8,0.8,2,210,,,,Ag-PPy/Gr,,,0.86,,,,KCl,4,1,two-electrode system
DOI: 10.1002/APP.44724,0 to 0.8,0,0.8,0.8,3,190,,,,Ag-PPy/Gr,,,0.86,,,,KCl,4,1,two-electrode system
DOI: 10.1002/celc.202100235,0 to 1.0,0,1,1,0.5,130,2053,,,annealed a-rGO,,,,,,,TEA-BF4/ acetonitrile,,1,two-electrode system
DOI: 10.1002/celc.202100235,0 to 1.0,0,1,1,100,84,2053,,,annealed a-rGO,,,,,,,TEA-BF4/ acetonitrile,,1,two-electrode system
DOI: 10.1002/celc.202100235,0 to 1.0,0,1,1,0.5,131,2034,,,a-rGO,,,,,,,TEA-BF4/ acetonitrile,,1,two-electrode system
DOI: 10.1002/celc.202100235,0 to 1.0,0,1,1,100,71,2034,,,a-rGO,,,,,,,TEA-BF4/ acetonitrile,,1,two-electrode system
DOI: 10.1002/open.201900004,0 to 1.0,0,1,1,0.5,153.7,759,,,graphene oxide (GO),,,,0,81.9,18.1,KOH,6,6,two-electrode system
DOI: 10.1002/open.201900004,0 to 1.0,0,1,1,2,10.9,759,,,graphene oxide (GO),,,,0,81.9,18.1,KOH,6,6,two-electrode system
DOI: 10.1002/open.201900004,0 to 1.0,0,1,1,0.5,119.6,669,,,"chemically-reduced graphene
oxide (rGO)",,,,0,94.7,5.3,KOH,6,6,two-electrode system
DOI: 10.1002/open.201900004,0 to 1.0,0,1,1,2,49.4,669,,,"chemically-reduced graphene
oxide (rGO)",,,,0,94.7,5.3,KOH,6,6,two-electrode system
DOI: 10.1002/open.201900004,0 to 1.0,0,1,1,0.5,14.5,341,,,liquid phase exfoliated graphene (LEG),,,,0,97.7,2.3,KOH,6,6,two-electrode system
DOI: 10.1002/open.201900004,0 to 1.0,0,1,1,2,12.7,341,,,liquid phase exfoliated graphene (LEG),,,,0,97.7,2.3,KOH,6,6,two-electrode system
DOI: 10.1002/open.201900004,0 to 1.0,0,1,1,0.5,22.4,392,,,cathodic electrochemically exfoliated graphene (CEEG),,,,0,96.1,3.9,KOH,6,6,two-electrode system
DOI: 10.1002/open.201900004,0 to 1.0,0,1,1,2,20.1,392,,,cathodic electrochemically exfoliated graphene (CEEG),,,,0,96.1,3.9,KOH,6,6,two-electrode system
DOI: 10.1002/open.201900004,0 to 1.0,0,1,1,0.5,46.7,546,,,anodic electrochemically exfoliated graphene (AEEG),,,,0,90.4,9.6,KOH,6,6,two-electrode system
DOI: 10.1002/open.201900004,0 to 1.0,0,1,1,2,40.8,546,,,anodic electrochemically exfoliated graphene (AEEG),,,,0,90.4,9.6,KOH,6,6,two-electrode system
DOI: 10.1002/open.201900004,0 to 1.0,0,1,1,0.5,12.4,378,,,graphene nanoribbons (GNR),,,,0,98.1,1.9,KOH,6,6,two-electrode system
DOI: 10.1002/open.201900004,0 to 1.0,0,1,1,2,11.5,378,,,graphene nanoribbons (GNR),,,,0,98.1,1.9,KOH,6,6,two-electrode system
DOI: 10.1002/APP.44808,0 to 0.8,0,0.8,0.8,1,291,,,,PORGO,,,0.88,,,,H2SO4,7,1,three-electrode system
DOI: 10.1002/APP.44808,0 to 0.8,0,0.8,0.8,1,1.4,,,,graphene oxide (GO),,,0.79,,,,H2SO4,7,1,three-electrode system
DOI: 10.1002/APP.44808,0 to 0.8,0,0.8,0.8,1,217,,,,rGO,,,0.92,,,,H2SO4,7,1,three-electrode system
DOI: 10.1002/APP.44808,0 to 0.8,0,0.8,0.8,1,369,,,,PANI-PORGO,,,,,,,H2SO4,7,1,three-electrode system
DOI: 10.1002/APP.44808,0 to 0.8,0,0.8,0.8,2,323,,,,PANI-PORGO,,,,,,,H2SO4,7,1,three-electrode system
DOI: 10.1002/APP.44808,0 to 0.8,0,0.8,0.8,5,270,,,,PANI-PORGO,,,,,,,H2SO4,7,1,three-electrode system
DOI: 10.1134/S1070427221030149,0 to 0.8,0,0.8,0.8,4,75.4,,,,multilayer graphene oxide,,,,,,,KOH,6,6,two-electrode system
DOI: 10.1134/S1070427221030149,0 to 0.8,0,0.8,0.8,1,90,,,,multilayer graphene oxide,,,,,,,KOH,6,6,two-electrode system
DOI: 10.1134/S1070427221030149,0 to 0.8,0,0.8,0.8,0.1,102.1,,,,multilayer graphene oxide,,,,,,,KOH,6,6,two-electrode system
DOI: 10.1007/s12678-015-0254-1,0 to 1.0,0,1,1,1,81.14,,,,rGO/mWCNTs/NF,,,0.41,,,,KOH,6,1,two-electrode system
DOI: 10.1007/s12678-015-0254-1,0 to 1.0,0,1,1,2,49,,,,rGO/mWCNTs/NF,,,0.41,,,,KOH,6,1,two-electrode system
DOI: 10.1007/s12678-015-0254-1,0 to 1.0,0,1,1,3,25,,,,rGO/mWCNTs/NF,,,0.41,,,,KOH,6,1,two-electrode system
DOI: 10.1007/s12678-015-0254-1,0 to 1.0,0,1,1,1,29.96,,,,rGO/NF,,,,,,,KOH,6,1,two-electrode system
DOI: 10.1007/s12678-015-0254-1,0 to 1.0,0,1,1,1,13.25,,,,mWCNTs/NF,,,,,,,KOH,6,1,two-electrode system
DOI: 10.1007/s10854-020-04085-0,-1.0 to 0,-1,0,1,0.5,822,,1.10,0.33,Fe3O4@N-PG/Ni foam,,,,3.63,32.37,37.15,Na2SO3,5,2,three-electrode system
DOI: 10.1007/s10854-020-04085-0,-1.0 to 0,-1,0,1,1,799,,1.10,0.33,Fe3O4@N-PG/Ni foam,,,,3.63,32.37,37.15,Na2SO3,5,2,three-electrode system
DOI: 10.1007/s10854-020-04085-0,-1.0 to 0,-1,0,1,2,775,,1.10,0.33,Fe3O4@N-PG/Ni foam,,,,3.63,32.37,37.15,Na2SO3,5,2,three-electrode system
DOI: 10.1007/s10854-020-04085-0,-1.0 to 0,-1,0,1,3,738,,1.10,0.33,Fe3O4@N-PG/Ni foam,,,,3.63,32.37,37.15,Na2SO3,5,2,three-electrode system
DOI: 10.1007/s10854-020-04085-0,-1.0 to 0,-1,0,1,5,692,,1.10,0.33,Fe3O4@N-PG/Ni foam,,,,3.63,32.37,37.15,Na2SO3,5,2,three-electrode system
DOI: 10.1007/s10854-020-04085-0,-1.0 to 0,-1,0,1,7,657,,1.10,0.33,Fe3O4@N-PG/Ni foam,,,,3.63,32.37,37.15,Na2SO3,5,2,three-electrode system
DOI: 10.1007/s10854-020-04085-0,-1.0 to 0,-1,0,1,10,631,,1.10,0.33,Fe3O4@N-PG/Ni foam,,,,3.63,32.37,37.15,Na2SO3,5,2,three-electrode system
DOI: 10.1007/s11804-014-1279-1,-0.1 to 0.35,-0.1,0.35,0.45,4.5,2128,,,,NiS/GNS/CNT,,,,,,,KOH,6,6,three-electrode system
DOI: 10.1007/s11804-014-1279-1,-0.1 to 0.35,-0.1,0.35,0.45,9,1621,,,,NiS/GNS/CNT,,,,,,,KOH,6,6,three-electrode system
DOI: 10.1007/s11804-014-1279-1,-0.1 to 0.35,-0.1,0.35,0.45,13.6,1397,,,,NiS/GNS/CNT,,,,,,,KOH,6,6,three-electrode system
DOI: 10.1007/s11804-014-1279-1,-0.1 to 0.35,-0.1,0.35,0.45,22.7,1158,,,,NiS/GNS/CNT,,,,,,,KOH,6,6,three-electrode system
DOI: 10.1134/S0036024421030080,0 to 0.8,0,0.8,0.8,0.5,1004,178.46,,,GO/mSiO2/PANI,,,,,,,,,,three-electrode system
DOI: 10.1134/S0036024421030080,0 to 0.8,0,0.8,0.8,2,1050,178.46,,,GO/mSiO2/PANI,,,,,,,,,,three-electrode system
DOI: 10.1134/S0036024421030080,0 to 0.8,0,0.8,0.8,10,1218,178.46,,,GO/mSiO2/PANI,,,,,,,,,,three-electrode system
DOI: 10.1134/S107042722008008X,0 to 1.0,0,1,1,0.1,141,,,,GO-TCT-TDDT,,,,,,,H2SO4,7,0.1,three-electrode system
DOI: 10.1134/S107042722008008X,0 to 1.0,0,1,1,1,119,,,,GO-TCT-TDDT,,,,,,,H2SO4,7,0.1,three-electrode system
[...]
DOI: 10.1021/acssuschemeng.8b05419,-1 to 0,-1,0,1,1,217,1706,,0.29,jute stick-derived nanoporous carbons (JC 900),3.8,1.2,0.557,0,87.5,12.5,KOH,6,6,three-electrode system
DOI: 10.1021/acssuschemeng.8b05419,-1 to 0,-1,0,1,1,226,2393,,0.20,jute stick-derived nanoporous carbons (JC 1000),3.4,1.6,0.18,0,96.5,3.5,KOH,6,6,three-electrode system
DOI: 10.1021/acssuschemeng.8b05419,-1 to 0,-1,0,1,0.5,282,2393,,0.20,jute stick-derived nanoporous carbons (JC 1000),3.4,1.6,0.18,0,96.5,3.5,KOH,6,6,three-electrode system
DOI: 10.1021/acssuschemeng.8b05419,-1 to 0,-1,0,1,1,145,,,,jute stick-derived nanoporous carbons (JC 1100),,,,,,,KOH,6,6,three-electrode system
DOI: 10.1021/acssuschemeng.9b02549,0 to 1,0,1,1,1,702,,,,Zn2SnO4/SnO2/CNT,,,,,,,KOH,6,6,two-electrode system
DOI: 10.1021/acssuschemeng.9b02549,0 to 1,0,1,1,10,260,,,,Zn2SnO4/SnO2/CNT,,,,,,,KOH,6,6,two-electrode system
DOI: 10.1021/acssuschemeng.9b04209,0 to 2.7,0,2.7,2.7,1,128.1,1816.4,,2.15,Ultrathin graphene-like porous carbon nano-sheets (GPCNS-3),2.49,1.16,,0.72,92.39,6.89,TEABF4/AN,8,1,two-electrode system
DOI: 10.1021/acssuschemeng.9b04209,0 to 2.7,0,2.7,2.7,2,127.4,1816.4,,2.15,Ultrathin graphene-like porous carbon nano-sheets (GPCNS-3),2.49,1.16,,0.72,92.39,6.89,TEABF4/AN,8,1,two-electrode system
DOI: 10.1021/acssuschemeng.9b04209,0 to 2.7,0,2.7,2.7,3,126,1816.4,,2.15,Ultrathin graphene-like porous carbon nano-sheets (GPCNS-3),2.49,1.16,,0.72,92.39,6.89,TEABF4/AN,8,1,two-electrode system
DOI: 10.1021/acssuschemeng.9b04209,0 to 2.7,0,2.7,2.7,4,124.7,1816.4,,2.15,Ultrathin graphene-like porous carbon nano-sheets (GPCNS-3),2.49,1.16,,0.72,92.39,6.89,TEABF4/AN,8,1,two-electrode system
DOI: 10.1021/acssuschemeng.9b04209,0 to 2.7,0,2.7,2.7,5,123.7,1816.4,,2.15,Ultrathin graphene-like porous carbon nano-sheets (GPCNS-3),2.49,1.16,,0.72,92.39,6.89,TEABF4/AN,8,1,two-electrode system
DOI: 10.1021/acssuschemeng.9b04209,0 to 2.7,0,2.7,2.7,10,120,1816.4,,2.15,Ultrathin graphene-like porous carbon nano-sheets (GPCNS-3),2.49,1.16,,0.72,92.39,6.89,TEABF4/AN,8,1,two-electrode system
DOI: 10.1021/acssuschemeng.9b04209,0 to 2.7,0,2.7,2.7,20,111.1,1816.4,,2.15,Ultrathin graphene-like porous carbon nano-sheets (GPCNS-3),2.49,1.16,,0.72,92.39,6.89,TEABF4/AN,8,1,two-electrode system
DOI: 10.1021/acssuschemeng.9b04209,0 to 2.7,0,2.7,2.7,30,104.4,1816.4,,2.15,Ultrathin graphene-like porous carbon nano-sheets (GPCNS-3),2.49,1.16,,0.72,92.39,6.89,TEABF4/AN,8,1,two-electrode system
DOI: 10.1021/acssuschemeng.9b04209,0 to 2.7,0,2.7,2.7,40,97.8,1816.4,,2.15,Ultrathin graphene-like porous carbon nano-sheets (GPCNS-3),2.49,1.16,,0.72,92.39,6.89,TEABF4/AN,8,1,two-electrode system
DOI: 10.1021/am100343a,0 to 1,0,1,1,,,,,,Large sized graphene nanosheets,,,,0.59,95.7,3.71,KOH,6,6,two-electrode system
DOI: 10.1021/am100343a,0 to 1,0,1,1,,,550,,, Small sized graphene nanosheets ,,,,1.21,92.47,6.32,KOH,6,6,two-electrode system
DOI: 10.1021/am100343a,0 to 1,0,1,1,30,36,,,,multilayer graphene nanosheet film,,,,,,,KOH,6,6,two-electrode system
DOI: 10.1021/am100343a,0 to 1,0,1,1,10,80,,,,multilayer graphene nanosheet film,,,,,,,KOH,6,6,two-electrode system
DOI: 10.1021/am2016848,0 to 0.9,0,0.9,0.9,5,105,,,,mnC/RGO (mnC-G37),,,,,,,Na2SO4,3,1,three-electrode system
DOI: 10.1021/am2016848,0 to 0.9,0,0.9,0.9,0.2,193,,,,mnC/RGO (mnC-G37),,,,,,,Na2SO4,3,1,three-electrode system
DOI: 10.1021/am2016848,0 to 0.9,0,0.9,0.9,5,53,,,,CNT-G,,,,,,,Na2SO4,3,1,three-electrode system
DOI: 10.1021/am2016848,0 to 0.9,0,0.9,0.9,0.2,69,,,,CNT-G,,,,,,,Na2SO4,3,1,three-electrode system
DOI: 10.1021/am302000z,-0.2 to 0.8,-0.2,0.8,1,0.3,33,47,,,multiwalled carbon nanotubes (mWCNTs),,,,,,,KOH,6,1,three-electrode system
DOI: 10.1021/am302000z,-0.2 to 0.8,-0.2,0.8,1,0.3,256,85,,,CGN,,,,,,,KOH,6,1,three-electrode system
DOI: 10.1021/am400001g,0 to 1,0,1,1,1,245,1088,,,CNCs-700,14.3,2.35,0.91,,,,KOH,6,6,two-electrode system
DOI: 10.1021/am400001g,0 to 1,0,1,1,1,248,1001,,0.31,CNCs-800,14.5,2.34,0.78,,,,KOH,6,6,two-electrode system
DOI: 10.1021/am400001g,0 to 1,0,1,1,10,217,1001,,0.31,CNCs-800,14.5,2.34,0.78,,,,KOH,6,6,two-electrode system
DOI: 10.1021/am400001g,0 to 1,0,1,1,100,189,1001,,0.31,CNCs-800,14.5,2.34,0.78,,,,KOH,6,6,two-electrode system
DOI: 10.1021/am400001g,-0.2 to 0.8,-0.2,0.8,1,1,262,1001,,0.31,CNCs-800,14.5,2.34,0.78,,,,H2SO4,7,1,three-electrode system
DOI: 10.1021/am400001g,0 to 1,0,1,1,1,232,769,,,CNCs-900,14,2.01,0.63,,,,KOH,6,6,two-electrode system
DOI: 10.1021/am4001634,-0.2 to 0.8,-0.2,0.8,1,0.1,257,891,,0.50,Graphene/PANI,,,,2.34,89.6,7.9,H2SO4,7,1,three-electrode system
DOI: 10.1021/am4001634,-0.2 to 0.8,-0.2,0.8,1,1,213,891,,0.50,Graphene/PANI,,,,2.34,89.6,7.9,H2SO4,7,1,three-electrode system
DOI: 10.1021/am4001634,-0.2 to 0.8,-0.2,0.8,1,10,145,891,,0.50,Graphene/PANI,,,,2.34,89.6,7.9,H2SO4,7,1,three-electrode system
DOI: 10.1021/am4003827,0 to 0.8,0,0.8,0.8,1,614,,,,PANI-HS36@ERGO,,,,,,,H2SO4,7,1,three-electrode system
DOI: 10.1021/am4003827,0 to 0.8,0,0.8,0.8,1,394,,,,PANI-HS36,,,,,,,H2SO4,7,1,three-electrode system
DOI: 10.1021/am4003827,0 to 0.8,0,0.8,0.8,1,93,,,,ERGO,,,,,,,H2SO4,7,1,three-electrode system
DOI: 10.1021/am401458,-1 to 0,-1,0,1,2,366,,,,graphene aerogel-nickel foam (GA@NF),,,,,,,KOH,6,6,three-electrode system
DOI: 10.1021/am401458,-1 to 0,-1,0,1,20,186,,,,graphene aerogel-nickel foam (GA@NF),,,,,,,KOH,6,6,three-electrode system
DOI: 10.1021/am401458,-1 to 0,-1,0,1,2,207,,,,GCA@NF,,,,,,,KOH,6,6,three-electrode system
DOI: 10.1021/am401458,-1 to 0,-1,0,1,20,142,,,,GCA@NF,,,,,,,KOH,6,6,three-electrode system
DOI: 10.1021/am403663f,-0.1 to 0.9,-0.1,0.9,1,0.5,350,,,,WS2/RGO,,,,,,,Na2SO4,3,1,two-electrode system
DOI: 10.1021/am404691w,0 to 0.4,0,0.4,0.4,2,425,,,,NiO/UDG/NF,,,,,,,KOH,6,5,three-electrode system
DOI: 10.1021/am404691w,0 to 0.4,0,0.4,0.4,4,410,,,,NiO/UDG/NF,,,,,,,KOH,6,5,three-electrode system
DOI: 10.1021/am404691w,0 to 0.4,0,0.4,0.4,6,390,,,,NiO/UDG/NF,,,,,,,KOH,6,5,three-electrode system
DOI: 10.1021/am404691w,0 to 0.4,0,0.4,0.4,10,300,,,,NiO/UDG/NF,,,,,,,KOH,6,5,three-electrode system
DOI: 10.1021/am501362g,-1 to 0,-1,0,1,1,401,903,,,GN-CNT,,,1.51,,,,KOH,6,6,three-electrode system
DOI: 10.1021/am501362g,-1 to 0,-1,0,1,10,271,903,,,GN-CNT,,,1.51,,,,KOH,6,6,three-electrode system
DOI: 10.1021/am5014375,0 to 0.5,0,0.5,0.5,2,1985,147,,,nickel hydroxide- manganese dioxide-reduced graphene oxide (Ni(OH)2- mnO2-RGO),,,,,,,KOH,6,1,three-electrode system
DOI: 10.1021/am5014375,0 to 0.5,0,0.5,0.5,3,1736,147,,,nickel hydroxide- manganese dioxide-reduced graphene oxide (Ni(OH)2- mnO2-RGO),,,,,,,KOH,6,1,three-electrode system
DOI: 10.1021/am5014375,0 to 0.5,0,0.5,0.5,4,1501,147,,,nickel hydroxide- manganese dioxide-reduced graphene oxide (Ni(OH)2- mnO2-RGO),,,,,,,KOH,6,1,three-electrode system
DOI: 10.1021/am5014375,0 to 0.5,0,0.5,0.5,6,1062,147,,,nickel hydroxide- manganese dioxide-reduced graphene oxide (Ni(OH)2- mnO2-RGO),,,,,,,KOH,6,1,three-electrode system
DOI: 10.1021/am5014375,0 to 0.5,0,0.5,0.5,8,724,147,,,nickel hydroxide- manganese dioxide-reduced graphene oxide (Ni(OH)2- mnO2-RGO),,,,,,,KOH,6,1,three-electrode system
DOI: 10.1021/am5021028,-0.2 to 0.8,-0.2,0.8,1,0.5,195.5,,,,CSS/G/PEDOT/mnO2 (active materials mass loading: 3.3 mg),,,,,,,Na2SO4,3,0.5,three-electrode system
DOI: 10.1021/am5021028,-0.2 to 0.8,-0.2,0.8,1,10,51,,,,CSS/G/PEDOT/mnO2 (active materials mass loading: 3.3 mg),,,,,,,Na2SO4,3,0.5,three-electrode system
DOI: 10.1021/am5021028,-0.2 to 0.8,-0.2,0.8,1,0.5,143.7,,,,CSS/ G/PEDOT,,,,,,,Na2SO4,3,0.5,three-electrode system
DOI: 10.1021/am5021028,-0.2 to 0.8,-0.2,0.8,1,10,88,,,,CSS/G/PEDOT electrode (active mass loading: 2.3 mg),,,,,,,Na2SO4,3,0.5,three-electrode system
DOI: 10.1021/am5024258,-0.9 to 1.3,-0.9,1.3,2.2,,,218,,,3D graphene/mnO2-60,,,,,,,,,,
DOI: 10.1021/am505533c,0 to 0.8,0,0.8,0.8,1,2136,,,,PANI-coated graphite,,,,,,,H2SO4,7,6,three-electrode system
DOI: 10.1021/am505533c,0 to 0.8,0,0.8,0.8,20,425,,,,PANI-coated graphite,,,,,,,H2SO4,7,6,three-electrode system
DOI: 10.1021/am505533c,0 to 0.8,0,0.8,0.8,1,1938,,,,PANI-coated graphite,,,,,,,H2SO4,7,3,three-electrode system
DOI: 10.1021/am505533c,0 to 0.8,0,0.8,0.8,20,150,,,,PANI-coated graphite,,,,,,,H2SO4,7,3,three-electrode system
DOI: 10.1021/am505533c,0 to 0.8,0,0.8,0.8,1,1788,,,,PANI-coated graphite,,,,,,,H2SO4,7,1,three-electrode system
DOI: 10.1021/am505533c,0 to 0.8,0,0.8,0.8,20,75,,,,PANI-coated graphite,,,,,,,H2SO4,7,1,three-electrode system
DOI: 10.1021/sc400055,-0.2 to 0.5,-0.2,0.5,0.7,2,532,,,,CT-Co(OH)2/graphene,,,,,,,KOH,6,6,three-electrode system
DOI: 10.1021/sc400055,-0.2 to 0.5,-0.2,0.5,0.7,6,449,,,,CT-Co(OH)2/graphene,,,,,,,KOH,6,6,three-electrode system
DOI: 10.1021/sc400055,-0.2 to 0.5,-0.2,0.5,0.7,8,395,,,,CT-Co(OH)2/graphene,,,,,,,KOH,6,6,three-electrode system
DOI: 10.1021/sc400055,-0.2 to 0.5,-0.2,0.5,0.7,10,357,,,,CT-Co(OH)2/graphene,,,,,,,KOH,6,6,three-electrode system
DOI: 10.1021/sc5006999,0 to 0.8,0,0.8,0.8,0.5,682.75,,,,G@PANI@G,,,,,,,H2SO4,7,1,three-electrode system
DOI: 10.1021/sc5006999,0 to 0.8,0,0.8,0.8,10,319.24,,,,G@PANI@G,,,,,,,H2SO4,7,1,three-electrode system
DOI: 10.1021/sc5006999,0 to 0.8,0,0.8,0.8,20,217.11,,,,G@PANI@G,,,,,,,H2SO4,7,1,three-electrode system
DOI: 10.1002/adfm.201301747,0 to 0.5,0,0.5,0.5,3,2682,,,,nickel-cobalt layered double hydroxide (Ni-Co LDH with 6:4 of Ni:Co ratio) hybrid films,,,,,,,KOH,6,1,three-electrode system
DOI: 10.1002/adfm.201301747,0 to 0.5,0,0.5,0.5,4,2580,,,,nickel-cobalt layered double hydroxide (Ni-Co LDH with 6:4 of Ni:Co ratio) hybrid films,,,,,,,KOH,6,1,three-electrode system
DOI: 10.1002/adfm.201301747,0 to 0.5,0,0.5,0.5,6,2435,,,,nickel-cobalt layered double hydroxide (Ni-Co LDH with 6:4 of Ni:Co ratio) hybrid films,,,,,,,KOH,6,1,three-electrode system
DOI: 10.1002/adfm.201301747,0 to 0.5,0,0.5,0.5,8,2339,,,,nickel-cobalt layered double hydroxide (Ni-Co LDH with 6:4 of Ni:Co ratio) hybrid films,,,,,,,KOH,6,1,three-electrode system
DOI: 10.1002/adfm.201301747,0 to 0.5,0,0.5,0.5,10,2228,,,,nickel-cobalt layered double hydroxide (Ni-Co LDH with 6:4 of Ni:Co ratio) hybrid films,,,,,,,KOH,6,1,three-electrode system
DOI: 10.1002/adfm.201301747,0 to 0.5,0,0.5,0.5,15,1977,,,,nickel-cobalt layered double hydroxide (Ni-Co LDH with 6:4 of Ni:Co ratio) hybrid films,,,,,,,KOH,6,1,three-electrode system
DOI: 10.1002/adfm.201301747,0 to 0.5,0,0.5,0.5,20,1706,,,,nickel-cobalt layered double hydroxide (Ni-Co LDH with 6:4 of Ni:Co ratio) hybrid films,,,,,,,KOH,6,1,three-electrode system
DOI: 10.1002/adfm.201803075,0 to 0.8,0,0.8,0.8,1,215,450,,,CNF/GN-2,,,1.3,,,,H2SO4,7,1,three-electrode system
DOI: 10.1002/adfm.201803075,0 to 0.8,0,0.8,0.8,1,97,350,,,CNF/GN-1,,,1.29,,,,H2SO4,7,1,three-electrode system
DOI: 10.1002/adfm.201803075,0 to 0.8,0,0.8,0.8,1,148,450,,,CNF/GN-3,,,1.33,,,,H2SO4,7,1,three-electrode system
DOI: 10.1002/admi.201600884,0 to 0.5,0,0.5,0.5,1.25,3344.08,,,,Co3O4/RGO-2 electrode (the mass ratio of CoCl2 to GO is 10:1),,,2.1,1.88,,,KOH,6,6,three-electrode system
DOI: 10.1002/admi.201600884,0 to 0.5,0,0.5,0.5,2.5,3111.5,,,,Co3O4/RGO-2 electrode (the mass ratio of CoCl2 to GO is 10:1),,,2.1,1.88,,,KOH,6,6,three-electrode system
DOI: 10.1002/admi.201600884,0 to 0.5,0,0.5,0.5,5,2840.3,,,,Co3O4/RGO-2 electrode (the mass ratio of CoCl2 to GO is 10:1),,,2.1,1.88,,,KOH,6,6,three-electrode system
DOI: 10.1002/admi.201600884,0 to 0.5,0,0.5,0.5,10,2571.6,,,,Co3O4/RGO-2 electrode (the mass ratio of CoCl2 to GO is 10:1),,,2.1,1.88,,,KOH,6,6,three-electrode system
DOI: 10.1002/admi.201600884,0 to 0.5,0,0.5,0.5,12.5,2488,,,,Co3O4/RGO-2 electrode (the mass ratio of CoCl2 to GO is 10:1),,,2.1,1.88,,,KOH,6,6,three-electrode system
DOI: 10.1002/admi.201600884,0 to 0.5,0,0.5,0.5,18.75,2316.75,,,,Co3O4/RGO-2 electrode (the mass ratio of CoCl2 to GO is 10:1),,,2.1,1.88,,,KOH,6,6,three-electrode system
DOI: 10.1002/slct.201700984,0 to 1,0,1,1,0.05,294,2400,,,AC/rGO,,,,,,,KOH,6,6,two-electrode system
DOI: 10.1002/slct.201700984,0 to 2.7,0,2.7,2.7,0.05,144,2400,,,AC/rGO,,,,,,,TEABF4/PC,,1,two-electrode system
DOI: 10.1002/slct.201700984,0 to 2.7,0,2.7,2.7,20,96,2400,,,AC/rGO,,,,,,,TEABF4/PC,,1,two-electrode system
DOI: 10.1002/slct.201802721,-0.1 to 0.45,-0.1,0.45,0.55,0.25,608.2,577.1,,,CoBTC mOF/GNS,,,,,,,KOH,6,1,three-electrode system
DOI: 10.1002/slct.201802721,-0.1 to 0.45,-0.1,0.45,0.55,0.3,587.1,577.1,,,CoBTC mOF/GNS,,,,,,,KOH,6,1,three-electrode system
DOI: 10.1002/slct.201802721,-0.1 to 0.45,-0.1,0.45,0.55,0.35,268.3,577.1,,,CoBTC mOF/GNS,,,,,,,KOH,6,1,three-electrode system
DOI: 10.1002/slct.201802721,-0.1 to 0.45,-0.1,0.45,0.55,0.4,548.2,577.1,,,CoBTC mOF/GNS,,,,,,,KOH,6,1,three-electrode system
DOI: 10.1002/slct.201802721,-0.1 to 0.45,-0.1,0.45,0.55,0.45,530.7,577.1,,,CoBTC mOF/GNS,,,,,,,KOH,6,1,three-electrode system
DOI: 10.1002/slct.201802721,-0.1 to 0.45,-0.1,0.45,0.55,0.5,512.3,577.1,,,CoBTC mOF/GNS,,,,,,,KOH,6,1,three-electrode system
DOI: 10.1002/slct.201802721,-0.1 to 0.45,-0.1,0.45,0.55,1,477.6,577.1,,,CoBTC mOF/GNS,,,,,,,KOH,6,1,three-electrode system
DOI: 10.1002/slct.201802721,-0.1 to 1.3,-0.1,1.3,1.4,0.25,183.2,577.1,,,CoBTC mOF/GNS,,,,,,,KOH,6,1,two-electrode system
DOI: 10.1002/slct.201802721,-0.1 to 1.3,-0.1,1.3,1.4,2,162.3,577.1,,,CoBTC mOF/GNS,,,,,,,KOH,6,1,two-electrode system
DOI: 10.1002/slct.201802721,-0.1 to 1.3,-0.1,1.3,1.4,4,148.8,577.1,,,CoBTC mOF/GNS,,,,,,,KOH,6,1,two-electrode system
DOI: 10.1002/slct.201802721,-0.1 to 1.3,-0.1,1.3,1.4,6,132.5,577.1,,,CoBTC mOF/GNS,,,,,,,KOH,6,1,two-electrode system
DOI: 10.1002/slct.201802721,-0.1 to 1.3,-0.1,1.3,1.4,8,116.3,577.1,,,CoBTC mOF/GNS,,,,,,,KOH,6,1,two-electrode system
DOI: 10.1002/slct.201802721,-0.1 to 1.3,-0.1,1.3,1.4,10,98.3,577.1,,,CoBTC mOF/GNS,,,,,,,KOH,6,1,two-electrode system
DOI: 10.1002/slct.201803149,0 to 1.2,0,1.2,1.2,10,36,,,,TiO2 NWs-RGO,,,,,,,,,,two-electrode system
DOI: 10.1002/slct.201803149,0 to 1.2,0,1.2,1.2,1,45.7,,,,TiO2 NWs-RGO,,,,,,,,,,two-electrode system
DOI: 10.1002/slct.201803149,0 to 0.4,0,0.4,0.4,1,202.5,,,,TiO2 NWs-RGO,,,,,,,KOH,6,6,three-electrode system
DOI: 10.1002/slct.202002801,0 to 0.8,0,0.8,0.8,1,680,,,,PANI NWAs/3D graphene,,,,,,,H2SO4,7,1,three-electrode system
DOI: 10.1002/slct.202002801,0 to 0.8,0,0.8,0.8,1,72.3,,,,1.0-3# composite,,,,,,,H2SO4,7,1,two-electrode system
DOI: 10.1002/slct.202104402,-0.2 to 0.7,-0.2,0.7,0.9,1,762,,,,PANI(HNTs)-rGO,,,,2.41,93.64,3.46,H2SO4,7,1,three-electrode system
DOI: 10.1002/slct.202104402,-0.2 to 0.7,-0.2,0.7,0.9,2,660,,,,PANI(HNTs)-rGO,,,,2.41,93.64,3.46,H2SO4,7,1,three-electrode system
DOI: 10.1002/slct.202104402,-0.2 to 0.7,-0.2,0.7,0.9,5,595,,,,PANI(HNTs)-rGO,,,,2.41,93.64,3.46,H2SO4,7,1,three-electrode system
DOI: 10.1002/slct.202104402,-0.2 to 0.7,-0.2,0.7,0.9,10,545,,,,PANI(HNTs)-rGO,,,,2.41,93.64,3.46,H2SO4,7,1,three-electrode system
DOI: 10.1002/slct.202104402,-0.2 to 0.7,-0.2,0.7,0.9,20,493,,,,PANI(HNTs)-rGO,,,,2.41,93.64,3.46,H2SO4,7,1,three-electrode system
DOI: 10.1002/cnma.201600107,-0.8 to 0,-0.8,0,0.8,10,101.7,,1.50,2.40,3DG-N-Ox,,,,0,89.9,10.1,KOH,6,3,three-electrode system
DOI: 10.1002/cnma.201600107,-0.8 to 0,-0.8,0,0.8,0.5,124.7,,1.50,2.40,3DG-N-Ox,,,,0,89.9,10.1,KOH,6,3,three-electrode system
DOI: 10.1002/cssc.201402045,0 to 0.8,0,0.8,0.8,,,,,,VGNS/CNTs,,,,,,,Na2SO4,3,0.1,three-electrode system
DOI: 10.1002/cjoc.201500595,0 to 1,0,1,1,1,310,,,,Ruthenium oxide/reduced graphene oxide nanoribbon composite (RuO2/rGONR-1),,,,,,,H2SO4,7,1,three-electrode system
DOI: 10.1002/cjoc.201500595,0 to 1,0,1,1,1,480,,,,Ruthenium oxide/reduced graphene oxide nanoribbon composite (RuO2/rGONR-2),,,,,,,H2SO4,7,1,three-electrode system
DOI: 10.1002/cjoc.201500595,0 to 1,0,1,1,1,677,,,,Ruthenium oxide/reduced graphene oxide nanoribbon composite (RuO2/rGONR-3),,,1.13,,,,H2SO4,7,1,three-electrode system
DOI: 10.1002/cjoc.201500595,0 to 1,0,1,1,1,518,,,,Ruthenium oxide/reduced graphene oxide nanoribbon composite (RuO2/rGONR-4),,,,,,,H2SO4,7,1,three-electrode system
DOI: 10.1002/cjoc.201500595,0 to 1.1,0,1.1,1.1,1,119.1,,,,Ruthenium oxide/reduced graphene oxide nanoribbon composite (RuO2/rGONR),,,1.13,,,,H2SO4,7,1,two-electrode system
DOI: 10.1002/cjoc.201500595,0 to 1.1,0,1.1,1.1,20,96.4,,,,Ruthenium oxide/reduced graphene oxide nanoribbon composite (RuO2/rGONR),,,1.13,,,,H2SO4,7,1,two-electrode system
DOI: 10.1002/cjoc.201500700,-1 to 0,-1,0,1,2.5,264,,,,Fe2O3/CCG (RFe/GO=1:3),,,,,,,KOH,6,2,three-electrode system
DOI: 10.1002/cjoc.201500700,-1 to 0,-1,0,1,37.5,196,,,,Fe2O3/CCG (RFe/GO=1:3),,,,,,,KOH,6,2,three-electrode system
DOI: 10.1002/cjoc.201500700,-1 to 0,-1,0,1,0.6,114,,,,Fe2O3/CCG (RFe/GO=1:10),,,,,,,KOH,6,2,three-electrode system
DOI: 10.1002/elan.202060262,0 to 0.7,0,0.7,0.7,1,975,,,,Co3O4@GO,,,,,,,Na2SO4,3,1,three-electrode system
DOI: 10.1002/elan.202060262,0 to 0.7,0,0.7,0.7,1,1358,,,,mnO2@GO,,,,,,,Na2SO4,3,1,three-electrode system
DOI: 10.1002/elan.202060262,0 to 0.7,0,0.7,0.7,1,1718,,,,Co3O4/mnO2@GO,,,,,,,Na2SO4,3,1,three-electrode system
DOI: 10.1002/ente.201500059,0 to 0.8,0,0.8,0.8,0.1,67.1,,,,reduced graphene oxide/vanadium pentoxide (GV-1),,,1.28,,,,Na2SO4,3,1,three-electrode system
DOI: 10.1002/ente.201500059,0 to 0.8,0,0.8,0.8,0.1,109.2,,,,reduced graphene oxide/vanadium pentoxide (GV-2),,,1.26,,,,Na2SO4,3,1,three-electrode system
DOI: 10.1002/ente.201500059,0 to 0.8,0,0.8,0.8,0.1,226.6,,,,reduced graphene oxide/vanadium pentoxide (GV-3),,,1.24,,,,Na2SO4,3,1,three-electrode system
DOI: 10.1002/ente.201500059,0 to 1.6,0,1.6,1.6,0.1,35,,,,G-V2O5,,,,,,,Na2SO4,3,1,two-electrode system
DOI: 10.1002/er.7173,-1 to 0,-1,0,1,1,260,,,,C-SrGO,,,0.94,0.61,84.24,12.83,KOH,6,6,three-electrode system
DOI: 10.1002/er.7173,-1 to 0,-1,0,1,2,241.8,,,,C-SrGO,,,0.94,0.61,84.24,12.83,KOH,6,6,three-electrode system
DOI: 10.1002/er.7173,-1 to 0,-1,0,1,3,235.5,,,,C-SrGO,,,0.94,0.61,84.24,12.83,KOH,6,6,three-electrode system
DOI: 10.1002/er.7173,-1 to 0,-1,0,1,5,227,,,,C-SrGO,,,0.94,0.61,84.24,12.83,KOH,6,6,three-electrode system
DOI: 10.1002/er.7173,-1 to 0,-1,0,1,7,221.41,,,,C-SrGO,,,0.94,0.61,84.24,12.83,KOH,6,6,three-electrode system
DOI: 10.1002/er.7173,-1 to 0,-1,0,1,10,216.3,,,,C-SrGO,,,0.94,0.61,84.24,12.83,KOH,6,6,three-electrode system
DOI: 10.1002/er.7173,-1 to 0,-1,0,1,1,189.4,,,,C-HrGO,,,0.99,2.29,83.77,13.03,KOH,6,6,three-electrode system
DOI: 10.1002/er.7173,0 to 1,0,1,1,1,267.39,,,,C-SrGO,,,0.94,0.61,84.24,12.83,,,,two-electrode system
DOI: 10.1002/er.7173,0 to 1,0,1,1,20,135.37,,,,C-SrGO,,,0.94,0.61,84.24,12.83,,,,two-electrode system
DOI: 10.1002/pat.5670,0 to 0.8,0,0.8,0.8,1,322.5,82.8,0.75,1.16,PANI/N-rGO,11.73,0.21,,,,,H2SO4,7,1,two-electrode system
DOI: 10.1002/pat.5670,0 to 0.8,0,0.8,0.8,1,252.5,59.21,1.60,1.21,PANI/rGO,12.86,0.19,,,,,H2SO4,7,1,two-electrode system
DOI: 10.1002/aenm.201300431,0 to 0.8,0,0.8,0.8,1.5,146,,,,VGNS grown at 80% H2 ,,,1.1,,,,Na2SO4,3,0.1,three-electrode system
DOI: 10.1002/aenm.201300431,0 to 0.8,0,0.8,0.8,1.5,122,,,,VGNS grown at 40% H2 ,,,2.2,,,,Na2SO4,3,0.1,three-electrode system
DOI: 10.1002/aenm.201501745,0 to 0.5,0,0.5,0.5,2,2077.5,85.85,,,LDHGOS,,0.461,,0,1.4,26.7,KOH,6,2,three-electrode system
DOI: 10.1002/aenm.201501745,0 to 0.5,0,0.5,0.5,1,2246.63,85.85,,,LDHGOS,,0.461,,0,1.4,26.7,KOH,6,2,three-electrode system
DOI: 10.1002/aenm.201501745,0 to 0.5,0,0.5,0.5,10,1670.83,85.85,,,LDHGOS,,0.461,,0,1.4,26.7,KOH,6,2,three-electrode system
DOI: 10.1002/aenm.201501745,0 to 0.5,0,0.5,0.5,20,1333.33,85.85,,,LDHGOS,,0.461,,0,1.4,26.7,KOH,6,2,three-electrode system
DOI: 10.1002/aenm.201600341,0 to 0.4,0,0.4,0.4,1,1141,,,,CoNi2S4-G-moSe2,,,,,,,KOH,6,6,three-electrode system
DOI: 10.1002/aenm.201600341,0 to 0.4,0,0.4,0.4,2,1046,,,,CoNi2S4-G-moSe2,,,,,,,KOH,6,6,three-electrode system
DOI: 10.1002/aenm.201600341,0 to 0.4,0,0.4,0.4,5,961,,,,CoNi2S4-G-moSe2,,,,,,,KOH,6,6,three-electrode system
DOI: 10.1002/aenm.201600341,0 to 0.4,0,0.4,0.4,10,771,,,,CoNi2S4-G-moSe2,,,,,,,KOH,6,6,three-electrode system
DOI: 10.1002/aenm.201600341,0 to 0.4,0,0.4,0.4,20,580,,,,CoNi2S4-G-moSe2,,,,,,,KOH,6,6,three-electrode system